Linear stochastic bandits (LB) provide simple, yet commonly encountered, models for a variety of sequential decision-making problems under uncertainty. Specifically, LB generalizes the classical multi-armed bandit (MAB) problem of K𝐾K arms that each yields reward sampled independently from an underlying distribution with unknown parameters, to a setting where the expected reward of each arm is a linear function that depends on the same unknown parameter vector [DHK08, AYPS11, RT10]. LBs have been successfully applied over the years in online advertising, recommendation services, resource allocation, etc. [LS18]. More recently, researchers have explored the potentials of such algorithms in more complex systems, such as in robotics, wireless networks, the power grid, medical trials, e.g., [LHLK13, AM19, BKS16, SZBY18].A distinguishing feature of many of these –perhaps less conventional– bandit applications, is their distributive nature. For example, in sensor/wireless networks [AM19], a collaborative behavior is required for decision-makers/agents to select better actions as individuals, but each of them is only able to share information about the unknown environment with a subset of neighboring agents.While a distributed nature is inherent in certain systems, distributed solutionsmight also be preferred in broader settings, as they can lead to speed-ups of the learning process.This calls for extensions of the traditional bandit setting to networked systems.At the same time, in many of these applications the unknown system might be safety-critical, i.e., the algorithm’s chosen actions need to satisfy certain constraints that, importantly, are often unknown. This leads to the challenge of balancing the goal of reward maximization with the restriction of playing safe actions. The past few years have seen a surge of research activity in these two areas: (i) distributed [WHCW19, MRKR19, SBFH+13, LSL16a]; and (ii) safe bandits [SGBK15, SZBY18, KGYVR17, AAT19, AAT20b, AAT20a, MAAT19, KB19, PGBJ20].

This paper contributes to the intersection of these two emerging lines of work. Concretely, we consider the problem of decentralized multi-agent linear bandits for a general (connected) network structure of N𝑁N agents, who can only communicate messages with their immediate neighbors. For this, we propose and analyze the first fully-decentralized algorithm. We also present a communication-efficient version and discuss key trade-offs between regret, communication cost and graph structure. Finally, we present the first simultaneously distributed and safe bandit algorithm for a setting with unknown linear constraints.

Notation.We use lower-case letters for scalars, lower-case bold letters for vectors, and upper-case bold letters for matrices. The Euclidean-norm of 𝐱𝐱\mathbf{x} is denoted by ∥𝐱∥2subscriptdelimited-∥∥𝐱2\mathinner{\!\left\lVert\mathbf{x}\right\rVert}_{2}. We denote the transpose of any column vector 𝐱𝐱\mathbf{x} by 𝐱Tsuperscript𝐱𝑇\mathbf{x}^{T}. For any vectors 𝐱𝐱\mathbf{x} and 𝐲𝐲\mathbf{y}, we use ⟨𝐱,𝐲⟩𝐱𝐲\langle\mathbf{x},\mathbf{y}\rangle to denote their inner product. Let 𝐀𝐀\mathbf{A} be a positive definite d×d𝑑𝑑d\times d matrix and 𝝂∈ℝd𝝂superscriptℝ𝑑\boldsymbol{\nu}\in\mathbb{R}^{d}. The weighted 2-norm of 𝝂𝝂\boldsymbol{\nu} with respect to 𝐀𝐀\mathbf{A} is defined by ∥𝝂∥𝐀=𝝂T​𝐀​𝝂subscriptdelimited-∥∥𝝂𝐀superscript𝝂𝑇𝐀𝝂\mathinner{\!\left\lVert\boldsymbol{\nu}\right\rVert}_{\mathbf{A}}=\sqrt{\boldsymbol{\nu}^{T}\mathbf{A}\boldsymbol{\nu}}. For positive integers n𝑛n and m≤n𝑚𝑛m\leq n, [n]delimited-[]𝑛[n] and [m:n]delimited-[]:𝑚𝑛[m\mathrel{\mathop{\mathchar 58\relax}}n] denote the sets {1,2,…,n}12…𝑛\{1,2,\ldots,n\} and {m,…,n}𝑚…𝑛\{m,\ldots,n\}, respectively. We use 𝟏1\mathbf{1} and 𝐞isubscript𝐞𝑖\mathbf{e}_{i} to denote the vector of all 111’s and the i𝑖i-th standard basis vector, respectively.

Decentralized Linear Bandit. We consider a network of N𝑁N agents and known convex compact decision set 𝒟⊂ℝd𝒟superscriptℝ𝑑\mathcal{D}\subset\mathbb{R}^{d} (our results can be easily extended to settings with time varying decision sets). Agents play actions synchronously. At each round t𝑡t, each agent i𝑖i chooses an action 𝐱i,t∈𝒟subscript𝐱𝑖𝑡𝒟\mathbf{x}_{i,t}\in\mathcal{D} and observes reward yi,t=⟨𝜽∗,𝐱i,t⟩+ηi,tsubscript𝑦𝑖𝑡subscript𝜽∗subscript𝐱𝑖𝑡subscript𝜂𝑖𝑡y_{i,t}=\langle\boldsymbol{\theta}_{\ast},\mathbf{x}_{i,t}\rangle+\eta_{i,t}, where 𝜽∗∈ℝdsubscript𝜽∗superscriptℝ𝑑\boldsymbol{\theta}_{\ast}\in\mathbb{R}^{d} is an unknown vector and ηi,tsubscript𝜂𝑖𝑡\eta_{i,t} is random additive noise.

Communication Model.The agents are represented by the nodes of anundirected and connected graph G𝐺G. Each agent can send and receive messages only to and from its immediate neighbors. The topology of G𝐺G is known to all agents via a communication matrix 𝐏𝐏\mathbf{P} (see Assumption 1).

Safety.The learning environment might be subject to unknown constraints that restrict the choice of actions. In this paper, we model the safety constraint by a linear function depending on an unknown vector 𝝁∗∈ℝdsubscript𝝁∗superscriptℝ𝑑\boldsymbol{\mu}_{\ast}\in\mathbb{R}^{d} and a known constant c∈ℝ𝑐ℝc\in\mathbb{R}. Specifically, the chosen action 𝐱i,tsubscript𝐱𝑖𝑡\mathbf{x}_{i,t} must satisfy⟨𝝁∗,𝐱i,t⟩≤csubscript𝝁∗subscript𝐱𝑖𝑡𝑐\langle\boldsymbol{\mu}_{\ast},\mathbf{x}_{i,t}\rangle\leq c,for all i𝑖i and t𝑡t, with high probability. We define the unknown safe set as𝒟s(𝝁∗):={𝐱∈𝒟:⟨𝝁∗,𝐱⟩≤c}\mathcal{D}^{\rm{s}}(\boldsymbol{\mu}_{\ast})\mathrel{\mathop{\mathchar 58\relax}}=\{\mathbf{x}\in\mathcal{D}\,\mathrel{\mathop{\mathchar 58\relax}}\,\langle\boldsymbol{\mu}_{\ast},\mathbf{x}\rangle\leq c\}.After playing 𝐱i,tsubscript𝐱𝑖𝑡\mathbf{x}_{i,t}, agent i𝑖i observes bandit-feedback measurements zi,t=⟨𝝁∗,𝐱i,t⟩+ζi,tsubscript𝑧𝑖𝑡subscript𝝁∗subscript𝐱𝑖𝑡subscript𝜁𝑖𝑡z_{i,t}=\langle\boldsymbol{\mu}_{\ast},\mathbf{x}_{i,t}\rangle+\zeta_{i,t}. This type of safety constraint, but for single-agent settings, has been recently introduced and studied in [AAT19, PGBJ20, SGBK15, SZBY18, MAAT19]. See also [KGYVR17, KB19] for related notions of safety studied recently in the context of single-agent linear bandits.

Goal.Let T𝑇T be the total number of rounds. We define the cumulative regret of the entire network as:RT:=∑t=1T∑i=1N⟨𝜽∗,𝐱∗⟩−⟨𝜽∗,𝐱i,t⟩.R_{T}\mathrel{\mathop{\mathchar 58\relax}}=\sum_{t=1}^{T}\sum_{i=1}^{N}\langle\boldsymbol{\theta}_{\ast},\mathbf{x}_{\ast}\rangle-\langle\boldsymbol{\theta}_{\ast},\mathbf{x}_{i,t}\rangle.The optimal action 𝐱∗subscript𝐱∗\mathbf{x}_{\ast} is defined with respect to 𝒟𝒟\mathcal{D} and 𝒟s​(𝝁∗)superscript𝒟ssubscript𝝁∗\mathcal{D}^{\rm{s}}(\boldsymbol{\mu}_{\ast}) as arg​max𝐱∈𝒟⁡⟨𝜽∗,𝐱⟩subscriptargmax𝐱𝒟subscript𝜽∗𝐱\operatorname*{arg\,max}_{\mathbf{x}\in\mathcal{D}}\langle\boldsymbol{\theta}_{\ast},\mathbf{x}\rangle and arg​max𝐱∈𝒟s​(𝝁∗)⁡⟨𝜽∗,𝐱⟩subscriptargmax𝐱superscript𝒟ssubscript𝝁∗subscript𝜽∗𝐱\operatorname*{arg\,max}_{\mathbf{x}\in\mathcal{D}^{\rm{s}}(\boldsymbol{\mu}_{\ast})}\langle\boldsymbol{\theta}_{\ast},\mathbf{x}\rangle in the original and safe settings, respectively.The goal is to minimize the cumulative regret, while each agent is allowed to share p​o​l​y​(N​d)𝑝𝑜𝑙𝑦𝑁𝑑poly(Nd) values per round to its neighbors. Specifically, we wish to achieve a regret close to that incurred by an optimal centralized algorithm for N​T𝑁𝑇NT rounds (the total number of plays). In the presence of safety constraint, in addition to the aforementioned goals, agents’ actions must alsosatisfy the safety constraint at each round.

DLUCB. We propose a fully decentralized linear bandit algorithm (DLUCB), at each round of which, the agents simultaneously share information among each other and pick their next actions. We prove a regret bound that captures both the degree of selected actions’ optimality and the inevitable delay in information-sharing due to the network structure. See Section 2.1 and 2.2. Compared to existing distributed LB algorithms, ours can be implemented (and remains valid) for any arbitrary (connected) network without requiring a peer-to-peer network structure or a master node. See Section 2.4.

RC-DLUCB. We propose a fully decentralized algorithm with rare communication (RC-DLUCB) to reduce the communication cost (total number of values communicated during the run of algorithm) for applications that are sensitive to high communication cost. See Section 2.3

Safe-DLUCB. We present and analyze the first fully decentralized algorithm for safe LBs with linear constraints. Our algorithm provably achieves regret of the same order (wrt. N​T𝑁𝑇NT) as if no constraints were present. See Section 3We complement our theoretical results with numerical simulations under various settings in Section 4.

Decentralized Bandits. There are several recent works on decentralized/distributed stochastic MAB problems.In the context of the classical K𝐾K-armed MAB, [MRKR19, LSL16a, LSL16b] proposed decentralized algorithms for a network of N𝑁N agents that can share information only with their immediate neighbors, while [SBFH+13] studies the MAB problem on peer-to-peer networks. More recently, [WHCW19] focuses on communication efficiency and presented K𝐾K-armed MAB algorithms with significantly lower communication overhead.In contrast to these, here, we study a LB model.The most closely related works on distributed/decentralized LB are [WHCW19] and [KSS16].In [WHCW19], the authors present a communication-efficient algorithm that operates under the coordination of a central server, such thatevery agent has instantaneous access to the full network information through the server.This model differs from the fully decentralized one considered here. In another closely related work, [KSS16] studies distributed LBs in peer-to-peer networks, where each agent canonly send information to one other randomly chosen agent, notnecessarily its neighbor, per round.A feature, in common with our algorithm, is the delayed use of bandit feedback, but the order of the delay differs between the two, owing to the different model. Please also see Section 2.4 for a more elaborate comparison.To recap, even-though motivated by the aforementioned works, our paper presents the first fully decentralized algorithm for the multi-agent LB problem on a general network topology, with communication between any two neighbors in the network. Furthermore, non of the above has studied the presence of safety constraints.

Safe Bandits.In a more general context, the notion of safe learning has many diverse definitions in the literature. Specifically, safety in bandit problems has itself received significant attention in recent years, e.g. [SGBK15, SZBY18, KGYVR17, AAT19, AAT20b, AAT20a, MAAT19, KB19, PGBJ20].To the best of our knowledge, all existing works on MAB/LB problems with safety constraints study a single-agent. As mentioned in Section 1.1, the multi-agent safe LB studied here is a canonical extension of the single-agent setting studied in [AAT19, MAAT19, PGBJ20]. Accordingly, our algorithm and analysis builds on ideas introduced in this prior work and extends them to multi-agent collaborative learning.

In this section, we present Decentralized Linear Upper Confidence Bound (DLUCB). Starting with a high-level description of the gossip communication protocol and of the benefits and challenges it brings to the problem in Section 2.1, we then explain DLUCB Algorithm 1 in Section 2.2. In Section 2.3 we present a communication-efficient version of DLUCB. Finally, in Section 2.4 we compare our algorithms to prior art.Throughout this section, we do not assume any safety constraints.Below, weintroduce some necessary assumptions.

We remark that 𝐏𝐏\mathbf{P} can be constructed with little global information about the graph, such as its adjacency matrix and the graph’s maximal degree; see Section 4 for an explicit construction.Once 𝐏𝐏\mathbf{P} is known, the total number of agents N𝑁N and the graph’s spectral gap 1−|λ2|1subscript𝜆21-|\lambda_{2}| are also known. We show in Section 2.2 that the latter two parameters fully capture how the network structure affects the algorithm’s regret.

DLCUB implements a UCB strategy. At the core of single-agent UCB algorithms, is the construction ofa proper confidence set around the true parameter 𝜽∗subscript𝜽∗\boldsymbol{\theta}_{\ast} using past actions and their observed rewards. In multi-agent settings, each agent i∈[N]𝑖delimited-[]𝑁i\in[N] maintains their own confidence set 𝒞i,tsubscript𝒞𝑖𝑡\mathcal{C}_{i,t} at every round t𝑡t. To exploit the network structure and enjoy the benefits of collaborative learning, it is important that 𝒞i,tsubscript𝒞𝑖𝑡\mathcal{C}_{i,t} is built using information about past actions of not only agent i𝑖i itself, but also of agents j≠i∈[N]𝑗𝑖delimited-[]𝑁j\neq i\in[N].For simplicity, we consider first a centralized setting of perfect information-sharing among agents. Specifically, assume that at every round t𝑡t, agent i𝑖i knows the past chosen actions and their observed rewards by all other agents in the graph. Having gathered all this information, each agent i𝑖i maintains knowledge of the following sufficient statisticsduring all rounds t𝑡t:𝐀∗,t=λ​I+∑τ=1t−1∑i=1N𝐱i,τ​𝐱i,τT,𝐛∗,t=∑τ=1t−1∑i=1Nyi,τ​𝐱i,τ.formulae-sequencesubscript𝐀∗𝑡𝜆𝐼superscriptsubscript𝜏1𝑡1superscriptsubscript𝑖1𝑁subscript𝐱𝑖𝜏superscriptsubscript𝐱𝑖𝜏𝑇subscript𝐛∗𝑡superscriptsubscript𝜏1𝑡1superscriptsubscript𝑖1𝑁subscript𝑦𝑖𝜏subscript𝐱𝑖𝜏\mathbf{A}_{\ast,t}=\lambda I+\sum_{\tau=1}^{t-1}\sum_{i=1}^{N}\mathbf{x}_{i,\tau}\mathbf{x}_{i,\tau}^{T},\leavevmode\nobreak\ \leavevmode\nobreak\ \mathbf{b}_{\ast,t}=\sum_{\tau=1}^{t-1}\sum_{i=1}^{N}y_{i,\tau}\mathbf{x}_{i,\tau}.(1)Here, λ≥1𝜆1\lambda\geq 1 is a regularization parameter. Of course, in this idealized scenario, the confidence set constructed based on (1) is the same for every agent. In fact, it is the same as the confidence set that would be constructed by a single-agent that is allowed to choose N𝑁N actions at every round.Here, we study a decentralized setting with imperfect information sharing. In particular, each agent i𝑖i can only communicate with its immediate neighbors j∈𝒩​(i)𝑗𝒩𝑖j\in\mathcal{N}(i) at any time t𝑡t. As such, it does not have direct access to the “perfect statistics” 𝐀∗,tsubscript𝐀∗𝑡\mathbf{A}_{\ast,t} and 𝐛∗,tsubscript𝐛∗𝑡\mathbf{b}_{\ast,t} in (1). Instead, it is confined to approximations of them, which we denote by 𝐀i,tsubscript𝐀𝑖𝑡\mathbf{A}_{i,t} and 𝐛i,tsubscript𝐛𝑖𝑡\mathbf{b}_{i,t}. At worst-case, where no communication is used, 𝐀i,t=λ​I+∑τ=1t−1𝐱i,τ​𝐱i,τTsubscript𝐀𝑖𝑡𝜆𝐼superscriptsubscript𝜏1𝑡1subscript𝐱𝑖𝜏superscriptsubscript𝐱𝑖𝜏𝑇\mathbf{A}_{i,t}=\lambda I+\sum_{\tau=1}^{t-1}\mathbf{x}_{i,\tau}\mathbf{x}_{i,\tau}^{T} (similarly for 𝐛i,tsubscript𝐛𝑖𝑡\mathbf{b}_{i,t}). But, this is a very poor approximation of 𝐀∗,tsubscript𝐀∗𝑡\mathbf{A}_{\ast,t} (correspondingly, 𝐛∗,tsubscript𝐛∗𝑡\mathbf{b}_{\ast,t}). Our goal is to construct a communication scheme that exploits exchange of information among agents to allow for drastically better approximations of (1). Towards this goal, our algorithm implements an appropriate gossip protocol to communicate each agent’s past actions and observed rewards to the rest of the network (even beyond immediate neighbors). We describe the details of this protocol next.

Running Consensus.In order to share information about agents’ past actions among the network, we rely on running consensus, e.g., [Lyn96, XB04]. The goal of running consensus is that after enough rounds of communication, each agent has an accurate estimate of the average (over all agents) of the initial values of each agent. Precisely, let 𝝂0∈ℝNsubscript𝝂0superscriptℝ𝑁\boldsymbol{\nu}_{0}\in\mathbb{R}^{N} be a vector, where each entry 𝝂0,i,i∈[N]subscript𝝂0𝑖𝑖delimited-[]𝑁\boldsymbol{\nu}_{0,i},i\in[N] represents agent’s i𝑖i information at some initial round. Then, running consensus aims at providing an accurate estimate of the average 1N​∑i∈[N]𝝂0,i1𝑁subscript𝑖delimited-[]𝑁subscript𝝂0𝑖\frac{1}{N}\sum_{i\in[N]}\boldsymbol{\nu}_{0,i} at each agent.Note that encoding 𝝂0=X​𝐞jsubscript𝝂0𝑋subscript𝐞𝑗\boldsymbol{\nu}_{0}=X\mathbf{e}_{j}, allows all agents to eventually get an estimate of the value X=∑i∈[N]𝝂0,i𝑋subscript𝑖delimited-[]𝑁subscript𝝂0𝑖X=\sum_{i\in[N]}\boldsymbol{\nu}_{0,i} that was initially known only to agent j𝑗j.To see how this is relevant to our setting recall (1) and focus at t=2𝑡2t=2 for simplicity.At round t=2𝑡2t=2, each agent j𝑗j only knows 𝐱j,1subscript𝐱𝑗1\mathbf{x}_{j,1} and estimation of 𝐀∗,2=∑i=1N𝐱i,1​𝐱i,1Tsubscript𝐀2superscriptsubscript𝑖1𝑁subscript𝐱𝑖1superscriptsubscript𝐱𝑖1𝑇\mathbf{A}_{*,2}=\sum_{i=1}^{N}{\mathbf{x}_{i,1}\mathbf{x}_{i,1}^{T}} by agent j𝑗j boils down to estimating each 𝐱i,1,i≠jsubscript𝐱𝑖1𝑖𝑗\mathbf{x}_{i,1},i\neq j.In our previous example, let X𝑋X be k𝑘k-th entry of 𝐱i,1subscript𝐱𝑖1\mathbf{x}_{i,1} for some i≠j𝑖𝑗i\neq j.By running consensus on 𝝂0=[𝐱j,1]k​𝐞jsubscript𝝂0subscriptdelimited-[]subscript𝐱𝑗1𝑘subscript𝐞𝑗\boldsymbol{\nu}_{0}=[\mathbf{x}_{j,1}]_{k}\mathbf{e}_{j} for k∈[d]𝑘delimited-[]𝑑k\in[d], every agent eventually builds an accurate estimate of [𝐱j,1]ksubscriptdelimited-[]subscript𝐱𝑗1𝑘[\mathbf{x}_{j,1}]_{k}, the k𝑘k-th entry of 𝐱j,1subscript𝐱𝑗1\mathbf{x}_{j,1} that would otherwise only be known to j𝑗j.It turns out that the communication matrix 𝐏𝐏\mathbf{P} defined in Assumption 1 plays a key role in reaching consensus.The details are standard in the rich related literature [XB04, Lyn96]. Here, we only give a brief explanation of the high-level principles. Roughly speaking, a consensus algorithm updates 𝝂0subscript𝝂0\boldsymbol{\nu}_{0} by 𝝂1=𝐏​𝝂0subscript𝝂1𝐏subscript𝝂0\boldsymbol{\nu}_{1}=\mathbf{P}\boldsymbol{\nu}_{0} and so on. Note that this operation respects the network structure since the updated value 𝝂1,jsubscript𝝂1𝑗\boldsymbol{\nu}_{1,j} is a weighted average of only 𝝂0,jsubscript𝝂0𝑗\boldsymbol{\nu}_{0,j} itself and neighbor-only values 𝝂0,i,i∈𝒩​(j).subscript𝝂0𝑖𝑖𝒩𝑗\boldsymbol{\nu}_{0,i},i\in\mathcal{N}(j). Thus, after S𝑆S rounds, agent j𝑗j has access to entry j𝑗j of 𝝂S=𝐏S​𝝂0subscript𝝂𝑆superscript𝐏𝑆subscript𝝂0\boldsymbol{\nu}_{S}=\mathbf{P}^{S}\boldsymbol{\nu}_{0}. This is useful because 𝐏𝐏\mathbf{P} is well-known to satisfy the following mixing property: limS→∞𝐏S=𝟏𝟏T/Nsubscript→𝑆superscript𝐏𝑆superscript11𝑇𝑁\lim_{S\to\infty}\mathbf{P}^{S}=\mathbf{1}\mathbf{1}^{T}/N [XB04]. Thus, limS→∞[𝝂S]j=1N​∑i=1N𝝂0,i,∀j∈[N]formulae-sequencesubscript→𝑆subscriptdelimited-[]subscript𝝂𝑆𝑗1𝑁superscriptsubscript𝑖1𝑁subscript𝝂0𝑖for-all𝑗delimited-[]𝑁\lim_{S\to\infty}[\boldsymbol{\nu}_{S}]_{j}=\frac{1}{N}\sum_{i=1}^{N}\boldsymbol{\nu}_{0,i},\forall j\in[N], as desired. Of course, in practice, the number S𝑆S of communication rounds is finite, leading to an ϵitalic-ϵ\epsilon-approximation of the average.

Accelerated-Consensus. In this paper, we adapt polynomial filtering introduced in [MRKR19, SBB+17] to speed up the mixing of information by following an approach whose convergence rate is faster than the standard multiplication method above.Specifically, after S𝑆S communication rounds, instead of 𝐏Ssuperscript𝐏𝑆\mathbf{P}^{S}, agents compute and apply to the initial vector 𝝂0subscript𝝂0\boldsymbol{\nu}_{0} an appropriate re-scaled Chebyshev polynomial qS​(𝐏)subscript𝑞𝑆𝐏q_{S}(\mathbf{P}) of degree S𝑆S of the communication matrix.Recall that Chebyshev polynomials are defined recursively. It turns out that the Chebyshev polynomial of degree ℓℓ\ell for a communication matrix 𝐏𝐏\mathbf{P} is also given by a recursive formula as follows:qℓ+1​(𝐏)=2​wℓ|λ2|​wℓ+1​𝐏​qℓ​(𝐏)−wℓ−1wℓ+1​qℓ−1​(𝐏),subscript𝑞ℓ1𝐏2subscript𝑤ℓsubscript𝜆2subscript𝑤ℓ1𝐏subscript𝑞ℓ𝐏subscript𝑤ℓ1subscript𝑤ℓ1subscript𝑞ℓ1𝐏q_{\ell+1}(\mathbf{P})=\frac{2w_{\ell}}{|\lambda_{2}|w_{\ell+1}}\mathbf{P}q_{\ell}(\mathbf{P})-\frac{w_{\ell-1}}{w_{\ell+1}}q_{\ell-1}(\mathbf{P}),where w0=0,w1=1/|λ2|formulae-sequencesubscript𝑤00subscript𝑤11subscript𝜆2w_{0}=0,w_{1}=1/|\lambda_{2}|, wℓ+1=2​wℓ/|λ2|−wℓ−1subscript𝑤ℓ12subscript𝑤ℓsubscript𝜆2subscript𝑤ℓ1w_{\ell+1}=2w_{\ell}/|\lambda_{2}|-w_{\ell-1}, q0​(𝐏)=Isubscript𝑞0𝐏𝐼q_{0}(\mathbf{P})=I and q1​(𝐏)=𝐏subscript𝑞1𝐏𝐏q_{1}(\mathbf{P})=\mathbf{P}.Specifically, in a Chebyshev-accelerated gossip protocol [MRKR19], the agents update their estimates of the average of the initial vector’s 𝝂0subscript𝝂0\boldsymbol{\nu}_{0} entries as follows:𝝂ℓ+1=(2​wℓ)/(|λ2|​wℓ+1)​𝐏​𝝂ℓ−(wℓ−1/wℓ+1)​𝝂ℓ−1.subscript𝝂ℓ12subscript𝑤ℓsubscript𝜆2subscript𝑤ℓ1𝐏subscript𝝂ℓsubscript𝑤ℓ1subscript𝑤ℓ1subscript𝝂ℓ1\displaystyle\boldsymbol{\nu}_{\ell+1}={(2w_{\ell})}/{(|\lambda_{2}|w_{\ell+1})}\mathbf{P}\boldsymbol{\nu}_{\ell}-{(w_{\ell-1}}/{w_{\ell+1})}\boldsymbol{\nu}_{\ell-1}.(2)Our algorithm DLUCB, which we present later in Section 2.2, implements the Checyshev-accelerated gossip protocol outlined above; see [MRKR19] for a similar implementation only for the classical K𝐾K-Armed MAB. Specifically, we summarize the accelerated communication step described in (2) with a function Comm​(xnow,xprev,ℓ)Commsubscript𝑥nowsubscript𝑥prevℓ{\rm Comm}(x_{\rm now},x_{\rm prev},\ell) with three inputs as follows: (1) xnowsubscript𝑥nowx_{\rm now} is the quantity of interest that the agent wants to update at the current round, (2) xprevsubscript𝑥prevx_{\rm prev} is the estimated value for the same quantity of interest that the agent updated in the previous round (cf. 𝝂ℓ−1subscript𝝂ℓ1\boldsymbol{\nu}_{\ell-1} in (2)); (3) ℓℓ\ell is the current communication round. Note that inputs here are scalars, however, matrices and vectors can also be passed as inputs, in which case CommComm\rm Comm runs entrywise. For a detailed description of CommComm\rm Comm please refer to Algorithm 3 in Appendix B.

The accelerated consensus algorithm implemented in CommComm\rm Comm guarantees fast mixing of information thanks to the following key property [MRKR19, Lem. 3]: for ϵ∈(0,1)italic-ϵ01\epsilon\in(0,1) and any vector 𝝂𝟎subscript𝝂0\boldsymbol{\nu_{0}} in the N𝑁N-dimensional simplex, it holds that‖N​qS​(𝐏)​𝝂𝟎−𝟏‖2≤ϵ,provided​S=log⁡(2​N/ϵ)2​log⁡(1/|λ2|).formulae-sequencesubscriptnorm𝑁subscript𝑞𝑆𝐏subscript𝝂012italic-ϵprovided𝑆2𝑁italic-ϵ21subscript𝜆2\|Nq_{S}(\mathbf{P})\boldsymbol{\nu_{0}}-{\mathbf{1}}\|_{2}\leq{\epsilon},\leavevmode\nobreak\ \text{provided}\leavevmode\nobreak\ S=\frac{\log(2N/\epsilon)}{\sqrt{2\log(1/|\lambda_{2}|)}}.\leavevmode\nobreak\ (3)In view of this, our algorithm properly calls CommComm\rm Comm (see Algorithm 1) such that for every i∈[N]𝑖delimited-[]𝑁i\in[N] and t∈[T]𝑡delimited-[]𝑇t\in[T], the action 𝐱i,tsubscript𝐱𝑖𝑡\mathbf{x}_{i,t} and corresponding reward yi,tsubscript𝑦𝑖𝑡y_{i,t} are communicated within the network for S𝑆S rounds. At round t+S𝑡𝑆t+S,agent i𝑖i has access to ai,j​𝐱j,tsubscript𝑎𝑖𝑗subscript𝐱𝑗𝑡a_{i,j}\mathbf{x}_{j,t} and ai,j​yj,tsubscript𝑎𝑖𝑗subscript𝑦𝑗𝑡a_{i,j}y_{j,t} where ai,j=N​[qS​(𝐏)]i,jsubscript𝑎𝑖𝑗𝑁subscriptdelimited-[]subscript𝑞𝑆𝐏𝑖𝑗a_{i,j}=N[q_{S}(\mathbf{P})]_{i,j}. Thanks to (3), ai,jsubscript𝑎𝑖𝑗a_{i,j} is ϵitalic-ϵ\epsilon close to 111, thus, these are good approximations of the true 𝐱j,tsubscript𝐱𝑗𝑡\mathbf{x}_{j,t} and yj,tsubscript𝑦𝑗𝑡y_{j,t}.Accordingly, at the beginning of round t>S𝑡𝑆t>S, each agent i𝑖i computes𝐀i,tsubscript𝐀𝑖𝑡\displaystyle\mathbf{A}_{i,t}:=λI+∑τ=1t−S∑j=1Nai,j2𝐱j,τ𝐱j,τT,𝐛i,t:=∑τ=1t−S∑j=1Nai,j2yj,τ𝐱j,τ,\displaystyle\mathrel{\mathop{\mathchar 58\relax}}=\lambda I+\sum_{\tau=1}^{t-S}\sum_{j=1}^{N}a_{i,j}^{2}\mathbf{x}_{j,\tau}\mathbf{x}_{j,\tau}^{T},\leavevmode\nobreak\ \mathbf{b}_{i,t}\mathrel{\mathop{\mathchar 58\relax}}=\sum_{\tau=1}^{t-S}\sum_{j=1}^{N}a_{i,j}^{2}y_{j,\tau}\mathbf{x}_{j,\tau},(4)which are agent i𝑖i’s approximations of the sufficient statistics 𝐀∗,t−S+1subscript𝐀∗𝑡𝑆1\mathbf{A}_{\ast,t-S+1} and 𝐛∗,t−S+1subscript𝐛∗𝑡𝑆1\mathbf{b}_{\ast,{t-S+1}} defined in (1). On the other hand, for rounds 1≤t≤S1𝑡𝑆1\leq t\leq S (before any mixing has been completed), let 𝐀i,t=λ​I+∑τ=1t−1𝐱i,τ​𝐱i,τTsubscript𝐀𝑖𝑡𝜆𝐼superscriptsubscript𝜏1𝑡1subscript𝐱𝑖𝜏superscriptsubscript𝐱𝑖𝜏𝑇\mathbf{A}_{i,t}=\lambda I+\sum_{\tau=1}^{t-1}\mathbf{x}_{i,\tau}\mathbf{x}_{i,\tau}^{T} and 𝐛i,t=∑τ=1t−1yi,τ​𝐱i,τsubscript𝐛𝑖𝑡superscriptsubscript𝜏1𝑡1subscript𝑦𝑖𝜏subscript𝐱𝑖𝜏\mathbf{b}_{i,t}=\sum_{\tau=1}^{t-1}y_{i,\tau}\mathbf{x}_{i,\tau} for i∈[N]𝑖delimited-[]𝑁i\in[N]. With these, at the beginning of each round t∈[T]𝑡delimited-[]𝑇t\in[T], agent i𝑖i constructs the confidence set𝒞i,t:={𝝂∈ℝd:∥𝝂−𝜽^i,t∥𝐀i,t≤βt},\displaystyle\mathcal{C}_{i,t}\mathrel{\mathop{\mathchar 58\relax}}=\{\boldsymbol{\nu}\in\mathbb{R}^{d}\mathrel{\mathop{\mathchar 58\relax}}\|{\boldsymbol{\nu}-\hat{\boldsymbol{\theta}}_{i,t}}\|_{\mathbf{A}_{i,t}}\leq\beta_{t}\},(5)where 𝜽^i,t=𝐀i,t−1​𝐛i,tsubscript^𝜽𝑖𝑡superscriptsubscript𝐀𝑖𝑡1subscript𝐛𝑖𝑡\hat{\boldsymbol{\theta}}_{i,t}=\mathbf{A}_{i,t}^{-1}\mathbf{b}_{i,t} and βtsubscript𝛽𝑡\beta_{t} is chosen as in Thm. 1 below to guarantee 𝜽∗∈𝒞i,tsubscript𝜽∗subscript𝒞𝑖𝑡\boldsymbol{\theta}_{\ast}\in\mathcal{C}_{i,t} with high probability.

The proof is mostly adapted from [AYPS11, Thm. 2] with necessary modifications to account for the imperfect information; see Appendix A.1.

We now describe DLUCB Algorithm 1 (see Appendix A.3 for a more detailed version). Each agent runs DLUCB in a parallel/synchronized way. For concreteness, let us focus on agent i∈[N]𝑖delimited-[]𝑁i\in[N].At every round t𝑡t, the agent maintains the following first-in first-out (FIFO) queues of size at most S𝑆S: 𝒜i,tsubscript𝒜𝑖𝑡\mathcal{A}_{i,t}, ℬi,tsubscriptℬ𝑖𝑡{\mathcal{B}}_{i,t}, 𝒜i,t−1subscript𝒜𝑖𝑡1\mathcal{A}_{i,t-1}, and ℬi,t−1subscriptℬ𝑖𝑡1{\mathcal{B}}_{i,t-1}. The queue 𝒜i,tsubscript𝒜𝑖𝑡\mathcal{A}_{i,t} contains agent i𝑖i’s estimates of all actions played at rounds [t−S:t−1]delimited-[]:𝑡𝑆𝑡1[t-S\mathrel{\mathop{\mathchar 58\relax}}t-1]. Concretely, its j𝑗j-th member, denoted by 𝒜i,t​(j)∈ℝN×dsubscript𝒜𝑖𝑡𝑗superscriptℝ𝑁𝑑\mathcal{A}_{i,t}(j)\in\mathbb{R}^{N\times d}, is a matrix whose k𝑘k-th row is agent i𝑖i’s estimate of agent k𝑘k’s action played at round t+j−S−1𝑡𝑗𝑆1t+j-S-1. Similarly, we define ℬi,tsubscriptℬ𝑖𝑡\mathcal{B}_{i,t} as the queue containing agent i𝑖i’s estimates of rewards observed at rounds [t−S:t−1]delimited-[]:𝑡𝑆𝑡1[t-S\mathrel{\mathop{\mathchar 58\relax}}t-1].At each round t𝑡t, agent i𝑖i sends every member of 𝒜i,tsubscript𝒜𝑖𝑡\mathcal{A}_{i,t} and ℬi,tsubscriptℬ𝑖𝑡{\mathcal{B}}_{i,t} (each entry of them) to its neighbors and at the same time it receives the corresponding values from them. The received values are used to update the information stored in 𝒜i,tsubscript𝒜𝑖𝑡\mathcal{A}_{i,t} and ℬi,tsubscriptℬ𝑖𝑡{\mathcal{B}}_{i,t}.The update is implemented by the sub-routine CommComm\rm Comm outlined in Section 2.1 and presented in detail in Appendix B.

At the beginning of rounds t>S𝑡𝑆t>S when, the information of rounds [t−S]delimited-[]𝑡𝑆[t-S] is mixed enough, agent i𝑖i updates its estimates 𝐀i,tsubscript𝐀𝑖𝑡\mathbf{A}_{i,t} and 𝐛i,tsubscript𝐛𝑖𝑡\mathbf{b}_{i,t} of 𝐀∗,t−Ssubscript𝐀∗𝑡𝑆\mathbf{A}_{\ast,t-S} and 𝐛∗,t−Ssubscript𝐛∗𝑡𝑆\mathbf{b}_{\ast,t-S}, respectively. Using these, it creates the confidence set 𝒞i,tsubscript𝒞𝑖𝑡\mathcal{C}_{i,t} and runs the UCB decision rule of Line 1 to select an action.Next, agent i𝑖i updates 𝒜i,tsubscript𝒜𝑖𝑡\mathcal{A}_{i,t} and ℬi,tsubscriptℬ𝑖𝑡{\mathcal{B}}_{i,t} in Lines 1 and 1, by eliminating the first elements (dequeuing) 𝒜i,t​(1)subscript𝒜𝑖𝑡1\mathcal{A}_{i,t}(1) and ℬi,t​(1)subscriptℬ𝑖𝑡1{\mathcal{B}}_{i,t}(1) of the queues 𝒜i,tsubscript𝒜𝑖𝑡\mathcal{A}_{i,t} and ℬi,tsubscriptℬ𝑖𝑡{\mathcal{B}}_{i,t} and adding the following elements at their end (enqueuing). At 𝒜i,tsubscript𝒜𝑖𝑡\mathcal{A}_{i,t} it appends 𝐗i,t∈ℝN×dsubscript𝐗𝑖𝑡superscriptℝ𝑁𝑑\mathbf{X}_{i,t}\in\mathbb{R}^{N\times d}, whose rows are all zero but its i𝑖i-th row which is set to 𝐱i,tTsuperscriptsubscript𝐱𝑖𝑡𝑇\mathbf{x}_{i,t}^{T}. Concurrently, at ℬi,tsubscriptℬ𝑖𝑡{\mathcal{B}}_{i,t}, it appends 𝐲i,t∈ℝNsubscript𝐲𝑖𝑡superscriptℝ𝑁\mathbf{y}_{i,t}\in\mathbb{R}^{N}, whose elements are all zero but its i𝑖i-th element which is set to yi,tsubscript𝑦𝑖𝑡y_{i,t}. Note that 𝐗i,tsubscript𝐗𝑖𝑡\mathbf{X}_{i,t} (similarly, 𝐲i,tsubscript𝐲𝑖𝑡\mathbf{y}_{i,t}) contains agent i𝑖i’s estimates of actions at round t𝑡t, and the zero rows will be updated with agent i𝑖i’s estimates of other agents’ information at round t𝑡t in future rounds. This is achieved viacalling the consensus algorithm CommComm\rm Comm in Lines 1 and 1, with which agent i𝑖i communicates all the members of 𝒜i,tsubscript𝒜𝑖𝑡\mathcal{A}_{i,t} and ℬi,tsubscriptℬ𝑖𝑡{\mathcal{B}}_{i,t} with its neighbors.

Regret analysis. There are two key challenges in the analysis of DLUCB compared to that of single-agent LUCB. First, information sharing is imperfect: the consensus algorithm mixes information for a finite number S𝑆S of communication rounds resulting in ϵitalic-ϵ\epsilon-approximations of the desired quantities (cf. (3)). Second, agents can use this (imperfect) information to improve their actions only after an inevitable delay. To see what changes in the analysis of regret, consider the standard decomposition of agent i𝑖i’s instantaneous regret at round t𝑡t:ri,t=⟨𝜽∗,𝐱∗⟩−⟨𝜽∗,𝐱i,t⟩≤2​βt​∥𝐱i,t∥𝐀i,t−1.subscript𝑟𝑖𝑡subscript𝜽∗subscript𝐱∗subscript𝜽∗subscript𝐱𝑖𝑡2subscript𝛽𝑡subscriptdelimited-∥∥subscript𝐱𝑖𝑡superscriptsubscript𝐀𝑖𝑡1r_{i,t}=\langle\boldsymbol{\theta}_{\ast},\mathbf{x}_{\ast}\rangle-\langle\boldsymbol{\theta}_{\ast},\mathbf{x}_{i,t}\rangle\leq 2\beta_{t}\mathinner{\!\left\lVert\mathbf{x}_{i,t}\right\rVert}_{\mathbf{A}_{i,t}^{-1}}.Using Cauchy-Schwartz inequality, an upper bound on the cumulative regret ∑t=1T∑i=1Nri,tsuperscriptsubscript𝑡1𝑇superscriptsubscript𝑖1𝑁subscript𝑟𝑖𝑡\sum_{t=1}^{T}\sum_{i=1}^{N}r_{i,t} can be obtained by bounding the following key term:∑t=1T∑i=1N∥𝐱i,t∥𝐀i,t−12.superscriptsubscript𝑡1𝑇superscriptsubscript𝑖1𝑁superscriptsubscriptdelimited-∥∥subscript𝐱𝑖𝑡superscriptsubscript𝐀𝑖𝑡12\displaystyle\sum_{t=1}^{T}\sum_{i=1}^{N}\mathinner{\!\left\lVert\mathbf{x}_{i,t}\right\rVert}_{\mathbf{A}_{i,t}^{-1}}^{2}.(6)We do this in two steps, each addressing one of the above challenges. First, in Lemma 1, we address the influence of imperfect information by relating the 𝐀i,t−1superscriptsubscript𝐀𝑖𝑡1\mathbf{A}_{i,t}^{-1}–norms in (6), with those in terms of their perfect information counterparts 𝐀∗,t−S+1−1subscriptsuperscript𝐀1∗𝑡𝑆1{\mathbf{A}^{-1}_{\ast,t-S+1}}.Hereafter, let 𝐀∗,t=λ​Isubscript𝐀∗𝑡𝜆𝐼\mathbf{A}_{\ast,t}={\lambda}I for t=−S,…,0,1𝑡𝑆…01t=-S,\ldots,0,1.

The intuition behind the lemma comes from the discussion on the accelerated protocol in Section 2.1. Specifically, with sufficiently small communication-error ϵitalic-ϵ\epsilon (cf. (3)), 𝐀i,tsubscript𝐀𝑖𝑡\mathbf{A}_{i,t} (cf. (4)) is a good approximation of 𝐀∗,t−S+1subscript𝐀∗𝑡𝑆1{\mathbf{A}_{\ast,t-S+1}} (cf. (1)). The lemma replaces the task of bounding (6) with that of bounding ∑t=1T∑i=1N∥𝐱i,t∥𝐀∗,t−S+1−12superscriptsubscript𝑡1𝑇superscriptsubscript𝑖1𝑁superscriptsubscriptdelimited-∥∥subscript𝐱𝑖𝑡subscriptsuperscript𝐀1∗𝑡𝑆12\sum_{t=1}^{T}\sum_{i=1}^{N}\mathinner{\!\left\lVert\mathbf{x}_{i,t}\right\rVert}_{{\mathbf{A}^{-1}_{\ast,t-S+1}}}^{2}. Unfortunately, this remains challenging. Intuitively, the reason for this is the mismatch of information about past actions in the gram matrix 𝐀∗,t−S+1subscript𝐀∗𝑡𝑆1{\mathbf{A}_{\ast,t-S+1}} at time t𝑡t, compared to the inclusion of all terms 𝐱i,τsubscript𝐱𝑖𝜏\mathbf{x}_{i,\tau} up to time t𝑡t in (6). Our idea is to relate ∥𝐱i,t∥𝐀∗,t−S+1−1subscriptdelimited-∥∥subscript𝐱𝑖𝑡subscriptsuperscript𝐀1∗𝑡𝑆1\mathinner{\!\left\lVert\mathbf{x}_{i,t}\right\rVert}_{{\mathbf{A}^{-1}_{\ast,t-S+1}}} to ∥𝐱i,t∥𝐁i,t−1subscriptdelimited-∥∥subscript𝐱𝑖𝑡superscriptsubscript𝐁𝑖𝑡1\mathinner{\!\left\lVert\mathbf{x}_{i,t}\right\rVert}_{\mathbf{B}_{i,t}^{-1}}, where 𝐁i,t=𝐀∗,t+∑j=1i−1𝐱j,t​𝐱j,tTsubscript𝐁𝑖𝑡subscript𝐀∗𝑡superscriptsubscript𝑗1𝑖1subscript𝐱𝑗𝑡superscriptsubscript𝐱𝑗𝑡𝑇\mathbf{B}_{i,t}=\mathbf{A}_{\ast,t}+\sum_{j=1}^{i-1}\mathbf{x}_{j,t}\mathbf{x}_{j,t}^{T}. This is possible thanks to the following lemma.

Using Lemmas 1 and 2 allows controlling the regret of all actions, but at most ψ𝜓\psi of them, using standard machinery in the analysis of UCB-type algorithms. The proofs of Lemmas 1 and 2 and technical details relating the results to a desired regret bound are deferred to Appendix A.2. The theorem below is our first main result and bounds the regret of DLUCB.

The regret bound has two additive terms: a small term 2​ψ​(λ,|λ2|,ϵ,d,N,T)2𝜓𝜆subscript𝜆2italic-ϵ𝑑𝑁𝑇2\psi(\lambda,|\lambda_{2}|,\epsilon,d,N,T) (cf. Lemma 2), which we call regret of delay, and, a second main term that (notably) is of the same order as the regret of a centralized problem where communication is possible between any two nodes (see Table 1).Thm. 2 holds for small ϵ≤1/(4​d+1)italic-ϵ14𝑑1\epsilon\leq 1/(4d+1). In Appendix A.2, we also provide a general regret bound for arbitrary ϵ∈(0,1)italic-ϵ01\epsilon\in(0,1).

As discussed in more detail in Section 2.4, DLUCB achieves order-wise optimal regret, but its communication cost scales as 𝒪​(d​N2​T)𝒪𝑑superscript𝑁2𝑇\mathcal{O}(dN^{2}T), i.e., linearly with the horizon duration T𝑇T (see Table 1). In this section, we present a modification tailored to communication settings that are sensitive to communication cost. The new algorithm – termed RC-DLUCB – is also a fully decentralized algorithm that trade-offs a slight increase in the regret performance, while guaranteeing a significantly reduced communication cost of 𝒪​(d3​N2.5​log⁡(N​d)log1/2⁡(1/|λ2|))𝒪superscript𝑑3superscript𝑁2.5𝑁𝑑superscript121subscript𝜆2\mathcal{O}\Big{(}d^{3}N^{2.5}\frac{\log(Nd)}{{\log^{1/2}(1/|\lambda_{2}|)}}\Big{)} over the entire horizon [T]delimited-[]𝑇[T]. We defer a detailed description (see Algorithm 4) and analysis (see Thms. 4 and 5) of RC-DLUCB in Appendix C. At a high-level, we design RC-DLUCB inspired by the Rarely Switching OFUL algorithm by [AYPS11]. In contrast to the Rarely Switching OFUL algorithm that is designed to save on computations in single-agent systems, RC-DLUCB incorporates a similar idea in our previous DLUCB to save on communication rounds. Specifically, compared to DLUCB where communication happens at each round, in RC-DLUCB agents continue selecting actions individually (i.e., with no communication), unless a certain condition is triggered by any one of them. Then, they all switch to a communication phase, in which they communicate the unmixed information they have gathered for a duration of S𝑆S rounds. Roughly speaking, an agent triggers the communication phase only once it has gathered enough new information compared to the last update by the rest of the network. This can be measured by keeping track of the variations in the corresponding gram matrix.

In Table 1, we compare (in terms of regret and communication) DLUCB and RC-DLUCB to two baselines: (i) a ‘No Communication’ and (ii) a fully ‘Centralized’ algorithm, as well as, to the state of the art: (iii) DCB [KSS16] and (iv) DisLinUCB [WHCW19].

Baselines. In the absence of communication, each agent independently implements a single-agent LUCB [AYPS11]. This trivial ‘No Communication’ algorithm has zero communication cost and applies to any graph, but its regret scales linearly with the number of agents. At another extreme, a fully ‘Centralized’ algorithm assumes communication is possible between any two agents at every round. This achieves optimal regret O~​(N​T)~𝑂𝑁𝑇\tilde{O}(\sqrt{NT}), which is a lower bound to the regret of any decentralized algorithm. However, it is only applicable in very limited network topologies, such as a star graph where the central node acts as a master node, or, a complete graph. Notably, DLUCB achieves order-wise optimal regret that is same as that of the ‘Centralized’ algorithm modulo a small additive regret-of-delay term.

DisLinUCB. In a motivating recent paper [WHCW19], the authors presented ‘DisLinUCB’ a communication algorithm that applies to multi-agent settings, in which agents can communicate with a master-node/server, by sending or receiving information to/from it with zero latency. Notably, DisLinUCB is shown to achieve order-optimal regret performance same as the ’Centralized’ algorithm, but at a significantly lower communication cost that does not scale with T𝑇T (see Table 1). In this paper, we do not assume presence of a master-node. In our setting, this can only be assumed in very limited cases: a star or a complete graph. Thus, compared to DisLinUCB, our DLUCB can be used for arbitrary network topologies with similar regret guarantees. However, DLUCB requires that communication be performed at each round. This discrepancy motivated us to introduce RC-LUCB, which has communication cost (slightly larger, but) comparable to that of DisLinUCB (see Table 1), while being applicable to general graphs. As a final note, as in RC-DLUCB, the reduced communication cost in DisLinUCB relies on the idea of the Rarely Switching OFUL algorithm of [AYPS11].

DCB. In another closely related work [KSS16] presented DCB for decentralized linear bandits in peer-to-peer networks. Specifically, it is assumed in [KSS16] that at every round each agent communicates with only one other randomly chosenagent per round. Instead, we consider fixed network topologies where each agent can only communicate with its immediate neighbors at every round. Thus, the two algorithms are not directly comparable. Nevertheless, we remark that, similar to our setting, DCB also faces the challenge of controlling a delayed use of information, caused by requiring enough mixing of the communicated information among agents. A key difference is that the duration of delay is typically 𝒪​(log⁡t)𝒪𝑡\mathcal{O}(\log t) in DCB, while in DLUCB it is fixed to S𝑆S, i.e., independent of the round t𝑡t. This explains the significantly smaller first-term in the regret of DLUCB as compared to the first-term in the regret of DCB in Table 1.

For the safe decentralized LB problem, we propose Safe-DLUCB, an extension of DLUCB to the safe setting and an extension of single-agent safe algorithms [AAT19, MAAT19, PGBJ20] to multi-agent systems. We defer a detailed description of Safe-DLCUB to Algorithm 5 in Appendix D. Here, we give a high-level description of its main steps and present its regret guarantees. First, we need the following assumption and notation.

Define the normalized safe action 𝐱~0:=𝐱0∥𝐱0∥\tilde{\mathbf{x}}_{0}\mathrel{\mathop{\mathchar 58\relax}}=\frac{\mathbf{x}_{0}}{\mathinner{\!\left\lVert\mathbf{x}_{0}\right\rVert}}. For any 𝐱∈ℝd𝐱superscriptℝ𝑑\mathbf{x}\in\mathbb{R}^{d}, denote by 𝐱o:=⟨𝐱,𝐱~0⟩𝐱~0\mathbf{x}^{o}\mathrel{\mathop{\mathchar 58\relax}}=\langle\mathbf{x},\tilde{\mathbf{x}}_{0}\rangle\tilde{\mathbf{x}}_{0} its projection on 𝐱0subscript𝐱0\mathbf{x}_{0}, and, by 𝐱⊥:=𝐱−𝐱o\mathbf{x}^{\bot}\mathrel{\mathop{\mathchar 58\relax}}=\mathbf{x}-\mathbf{x}^{o} its projection onto the orthogonal subspace.

In the presence of safety, the agents must act conservatively to ensure that the chosen actions 𝐱i,tsubscript𝐱𝑖𝑡\mathbf{x}_{i,t} do not violate the safety constraint ⟨𝝁∗,𝐱i,t⟩≤csubscript𝝁∗subscript𝐱𝑖𝑡𝑐\langle\boldsymbol{\mu}_{\ast},\mathbf{x}_{i,t}\rangle\leq c. To this end, agent i𝑖i communicates, not only 𝐱i,tsubscript𝐱𝑖𝑡\mathbf{x}_{i,t} and yi,tsubscript𝑦𝑖𝑡y_{i,t}, but also the bandit-feedback measurements zi,tsubscript𝑧𝑖𝑡z_{i,t}, following the communication protocol implemented by CommComm\rm Comm (cf. Section 2.1). Once information is sufficiently mixed, it builds an additional confidence set ℰi,tsubscriptℰ𝑖𝑡\mathcal{E}_{i,t} that includes 𝝁∗⊥superscriptsubscript𝝁∗bottom\boldsymbol{\mu}_{\ast}^{\bot} with high probability (note that 𝝁∗osuperscriptsubscript𝝁∗𝑜\boldsymbol{\mu}_{\ast}^{o} is already known by Assumption 4). Please refer to Appendix D.1 for the details on constructing ℰi,tsubscriptℰ𝑖𝑡\mathcal{E}_{i,t}.Once ℰi,tsubscriptℰ𝑖𝑡\mathcal{E}_{i,t} is constructed, agent i𝑖i creates the following safe inner approximation of the true 𝒟s​(𝝁∗)superscript𝒟ssubscript𝝁∗\mathcal{D}^{\rm{s}}(\boldsymbol{\mu}_{\ast}):𝒟i,ts:={𝐱∈𝒟:⟨𝐱o,𝐱~0⟩∥𝐱0∥c0+⟨𝝁^i,t⊥,𝐱⊥⟩+βt∥𝐱⊥∥𝐀i,t⊥,−1≤c}.\mathcal{D}_{i,t}^{\rm{s}}\mathrel{\mathop{\mathchar 58\relax}}=\{\mathbf{x}\in\mathcal{D}\mathrel{\mathop{\mathchar 58\relax}}\frac{\langle\mathbf{x}^{o},\tilde{\mathbf{x}}_{0}\rangle}{\mathinner{\!\left\lVert\mathbf{x}_{0}\right\rVert}}c_{0}+\langle\hat{\boldsymbol{\mu}}_{i,t}^{\bot},\mathbf{x}^{\bot}\rangle+\beta_{t}\mathinner{\!\left\lVert\mathbf{x}^{\bot}\right\rVert}_{\mathbf{A}_{i,t}^{\bot,-1}}\leq c\}.Specifically, Proposition 1 in Appendix D.1 guarantees for any δ∈(0,1)𝛿01\delta\in(0,1) that for all i∈[N]𝑖delimited-[]𝑁i\in[N], t∈[T]𝑡delimited-[]𝑇t\in[T], all actions in 𝒟i,tssuperscriptsubscript𝒟𝑖𝑡s\mathcal{D}_{i,t}^{\rm{s}} are safe with probability 1−δ1𝛿1-\delta.After constructing 𝒟i,tssuperscriptsubscript𝒟𝑖𝑡s\mathcal{D}_{i,t}^{\rm{s}}, agent i𝑖i selects safe action 𝐱i,t∈𝒟i,tssubscript𝐱𝑖𝑡superscriptsubscript𝒟𝑖𝑡s\mathbf{x}_{i,t}\in\mathcal{D}_{i,t}^{\rm{s}} following a UCB decision rule:⟨𝜽~i,t,𝐱i,t⟩=max𝐱∈𝒟i,ts⁡max𝝂∈κr​𝒞i,t⁡⟨𝝂,𝐱⟩.subscript~𝜽𝑖𝑡subscript𝐱𝑖𝑡subscript𝐱superscriptsubscript𝒟𝑖𝑡ssubscript𝝂subscript𝜅𝑟subscript𝒞𝑖𝑡𝝂𝐱\displaystyle\langle\tilde{\boldsymbol{\theta}}_{i,t},\mathbf{x}_{i,t}\rangle=\max_{\mathbf{x}\in\mathcal{D}_{i,t}^{\rm{s}}}\max_{\boldsymbol{\nu}\in\kappa_{r}\mathcal{C}_{i,t}}\langle\boldsymbol{\nu},\mathbf{x}\rangle.(7)A subtle, but critical, point in (7) is that the inner maximization is over an appropriately enlarged confidence set κr​𝒞i,tsubscript𝜅𝑟subscript𝒞𝑖𝑡\kappa_{r}\mathcal{C}_{i,t}. Specifically, compared to Lines 1 and 1 in Algorithm 1, we need here that κr>1subscript𝜅𝑟1\kappa_{r}>1. Intuitively, this is required because the outer maximization in (7) is not over the entire 𝒟s​(𝝁∗)superscript𝒟ssubscript𝝁∗\mathcal{D}^{\rm{s}}(\boldsymbol{\mu}_{\ast}), but only a subset of it. Thus, larger values of κrsubscript𝜅𝑟\kappa_{r} are needed to provide enough exploration to the algorithm so that the selected actions in 𝒟i,tssuperscriptsubscript𝒟𝑖𝑡s\mathcal{D}_{i,t}^{\rm{s}} are -often enough- optimistic, i.e., ⟨𝜽~i,t,𝐱i,t⟩≥⟨𝜽∗,𝐱∗⟩subscript~𝜽𝑖𝑡subscript𝐱𝑖𝑡subscript𝜽∗subscript𝐱∗\langle\tilde{\boldsymbol{\theta}}_{i,t},\mathbf{x}_{i,t}\rangle\geq\langle\boldsymbol{\theta}_{\ast},\mathbf{x}_{\ast}\rangle; see Lemma 5 in Appendix D.2 for the exact statement. We attribute the above idea that more aggressive exploration of that form is needed in the safe setting to [MAAT19], only they considered a Thompson-sampling scheme and a single agent. [PGBJ20] extended this idea to UCB algorithms, again in the single-agent setting (and for a slightly relaxed notion of safety). Here, we show that the idea extends to multi-agent systems and when incorporated to the framework of DLUCB leads to a safe decentralized algorithm with provable regret guarantees stated in the theorem below. See Appendix D for the proof.

The regret bound is of the same order as DLUCB regret bound, with only an additional factor κrsubscript𝜅𝑟\kappa_{r} in its second term.

In this section, we evaluate our algorithms’ performance on synthetic data. Since the UCB decision rule at line 1 of Algorithm 1 involves a generally non-convex optimization problem, we use a standard computationally tractable modification that replaces ℓ2subscriptℓ2\ell_{2} with ℓ1subscriptℓ1\ell_{1} norms in the definition of confidence set (5) (unless the decision set is finite); see [DHK08]. All results directly apply to this modified algorithm after only changing the radius βtsubscript𝛽𝑡\beta_{t} with βt​dsubscript𝛽𝑡𝑑\beta_{t}\sqrt{d} [DHK08, Section 3.4]. All the results shown depict averages over 20 realizations, for which we have chosen d=5,𝒟=[−1,1]5formulae-sequence𝑑5𝒟superscript115d=5,\mathcal{D}=[-1,1]^{5}, λ=1𝜆1\lambda=1, and σ=0.1𝜎0.1\sigma=0.1. Moreover, 𝜽∗subscript𝜽∗\boldsymbol{\theta}_{\ast} is drawn from 𝒩​(0,I5)𝒩0subscript𝐼5\mathcal{N}(0,I_{5}) and then normalized to unit norm. We compute the communication matrix as 𝐏=I−1δmax+1​𝐃−1/2​ℒ​𝐃−1/2𝐏𝐼1subscript𝛿max1superscript𝐃12ℒsuperscript𝐃12\mathbf{P}=I-\frac{1}{\delta_{{\rm max}}+1}\mathbf{D}^{-1/2}\mathcal{L}\mathbf{D}^{-1/2}, where δmaxsubscript𝛿max\delta_{{\rm max}} is the maximum degree of the graph and ℒℒ\mathcal{L} is the graph Laplacian (see [DAW11] for details).In Figures 1(a) and 1(b), fixing N=20𝑁20N=20, we evaluate the performance of DLUCB and RC-DLUCB on 4 different topologies: Ring, Star, Complete, and a Random Erdős–Rényi graph with parameter p=0.5𝑝0.5p=0.5; see Figure 2 in Appendix E for graphical illustrations of the graphs. We also compare them to the performance of No Communication (see Section 2.4). The plot verifies the sublinear growth for all graphs, the superiority over the setting of No Communication and the fact that smaller |λ2|subscript𝜆2|\lambda_{2}| leads to a smaller regret (regret of delay term in Thm. 2).A comparison between Figures 1(a) and 1(b), further confirms the slightly better regret performance of DLUCB compared to RC-DLUCB (but the latter has superior communication cost).Figure 1(c) emphasizes the value of collaboration in speeding up the learning process. It depicts the per-agent regret of DLUCB on random graphs with N=5𝑁5N=5, 101010 and 151515 nodes and compares their performance with the single-agent LUCB. Clearly, as the number of agents increases, each agent learns the environment faster as an individual.

In this paper, we proposed two fully decentralized LB algorithms: 1) DLUCB and 2) RC-DLUCB with small communication cost. We also proposed Safe-DLUCB to addressthe problem of safe LB in multi-agent settings. We derived near-optimal regret bounds for all the aforementioned algorithms that are applicable to arbitrary, but fixed networks. An interesting open problem is to design decentralized algorithms withprovable guarantees for settings with time-varying networks. Also, extensions to nonlinear settings and other types of safety-constraints are important future directions.